Folder: PyHEADTAIL-playground/IW2D-master/examples/outputs/round_chamber_sio2

Note: IW2D-master/examples/outputs/README
This folder contains the results of IW2D computations for five cases:
round chamber
flat chamber
flat chamber with non-linear terms
round chamber with wake
flat chamber with wake

The results were obtained with an installation on lxplus779.cern.ch (CC7), on 2022-09-03

The run times are approximately:
<1 sec for round chamber
5  sec for flat chamber
42 sec for flat chamber non-linear
10 sec for round chamber with wake
42 sec for flat chamber with wake

This folder also contains a few older examples, for the LHC injection protection collimator (TDI) and for SLSII.

File: ZlongWLHC_2layers1.00mm_test_coll_round_sio2.dat
Frequency [Hz]	Re(Zlong) [Ohm]	Im(Zlong) [Ohm]
1e+09 -2.10852e-45 1508.96
1.77828e+09 3.00767e-47 2703.1
3.16228e+09 -3.59457e-45 4922.97
5.62341e+09 3.81171e-44 9511.73
1e+10 -6.78006e-44 24798.2
1.77828e+10 -9.02867e-44 -17849.6
3.16228e+10 -5.43983e-43 65837.5
5.62341e+10 -3.04672e-42 -106357
1e+11 -1.12705e-42 -53555.7
1.77828e+11 -6.86792e-43 9070.76
3e+11 -2.30024e-43 -14695.7
3.16228e+11 -1.00704e-42 -26675.7
3.17e+11 -7.09896e-43 -23592.8
3.34e+11 -3.93692e-40 313730
3.51e+11 -5.77747e-43 -3152.47
3.68e+11 -2.30474e-43 -10458.9
3.85e+11 -3.38071e-43 -15232.3
4.02e+11 -2.02422e-42 -28320.6
4.19e+11 -1.79741e-42 4748.34
4.36e+11 -2.65073e-43 -7504.61
4.53e+11 -2.0545e-43 -11261.7
4.7e+11 -5.07495e-43 -15860.6
4.87e+11 -1.89232e-39 431145
5.04e+11 -4.44886e-43 -4730.9
5.21e+11 -1.85008e-43 -8781.56
5.38e+11 -2.19809e-43 -11495.4
5.55e+11 -1.95168e-42 -19765
5.62341e+11 -1.90265e-43 -9602.32
5.72e+11 -1.27379e-42 -393.017
5.89e+11 -2.19329e-43 -6911
6.06e+11 -2.04106e-43 -9102.55
6.23e+11 -5.22333e-43 -12121.4
6.4e+11 -3.92262e-41 34911.2
6.57e+11 -3.27164e-43 -5166.05
6.74e+11 -1.4262e-43 -7488.54
6.91e+11 -2.15957e-43 -9266.71
7.08e+11 -2.40567e-42 -16490.6
7.25e+11 -7.73907e-43 -2812.98
7.42e+11 -1.65126e-43 -6227.84
7.59e+11 -1.74647e-43 -7630.56
7.76e+11 -5.37805e-43 -9982.09
7.93e+11 -5.71742e-42 5416.35
8.1e+11 -2.14823e-43 -5072.62
8.27e+11 -1.37968e-43 -6492.26
8.44e+11 -2.24243e-43 -7802.01
8.61e+11 -5.39554e-42 -16750.4
8.78e+11 -4.22774e-43 -3696.52
8.95e+11 -1.17972e-43 -5591.46
9.12e+11 -1.47028e-43 -6572.12
9.29e+11 -6.23817e-43 -8702.6
9.46e+11 -1.72871e-42 -715.269
9.63e+11 -1.67544e-43 -4781.84
9.8e+11 -1.19477e-43 -5715.05
9.97e+11 -2.27392e-43 -6786.56
1e+12 -1.28552e-43 -5971.72
1.014e+12 -7.04143e-41 -35302.3
1.031e+12 -2.75426e-43 -3902.12
1.048e+12 -1.05001e-43 -5037.35
1.065e+12 -1.3818e-43 -5782.71
1.082e+12 -9.21707e-43 -8054.31
1.099e+12 -7.55659e-43 -2487.99
1.116e+12 -1.22372e-43 -4439.6
1.133e+12 -9.46511e-44 -5099.56
1.15e+12 -2.9529e-43 -6070.03
1.167e+12 -1.36916e-41 6067.89
1.184e+12 -1.77277e-43 -3831.48
1.201e+12 -1.10528e-43 -4565.96
1.218e+12 -1.32978e-43 -5180.01
1.235e+12 -2.03235e-42 -8228.97
1.252e+12 -3.71714e-43 -3025.14
1.269e+12 -9.92245e-44 -4104.23
1.286e+12 -1.00303e-43 -4605.41
1.303e+12 -3.71673e-43 -5584.88
1.32e+12 -1.91963e-42 -930.558
1.337e+12 -1.18778e-43 -3656.46
1.354e+12 -9.02689e-44 -4167.51
1.371e+12 -1.63768e-43 -4715.61
1.388e+12 -1.20432e-41 -11815
1.405e+12 -2.23366e-43 -3133.36
1.422e+12 -7.5829e-44 -3796.56
1.439e+12 -9.97562e-44 -4204.65
1.456e+12 -5.79945e-43 -5332.25
1.473e+12 -6.6426e-43 -2213.27
1.49e+12 -1.02878e-43 -3449.85
1.507e+12 -8.51842e-44 -3830.69
1.524e+12 -1.89201e-43 -4362.75
1.541e+12 -2.69277e-41 6353.93
1.558e+12 -1.35596e-43 -3077.96
1.575e+12 -6.55488e-44 -3522.02
1.592e+12 -1.11377e-43 -3878.18
1.609e+12 -1.19198e-42 -5461.11
1.626e+12 -3.01465e-43 -2556.75
1.643e+12 -8.06407e-44 -3242.36
1.66e+12 -8.16043e-44 -3545.43
1.677e+12 -2.82827e-43 -4113.22
1.694e+12 -1.90154e-42 -1062.14
1.711e+12 -9.63043e-44 -2959.87
1.728e+12 -6.44411e-44 -3279.98
1.745e+12 -1.29343e-43 -3613.81
1.762e+12 -6.29016e-42 -7143.33
1.77828e+12 -1.50905e-43 -2723.69
1.779e+12 -1.76332e-43 -2616.69
1.796e+12 -6.94756e-44 -3046.51
1.813e+12 -7.53689e-44 -3303.69
1.83e+12 -4.26545e-43 -3987.13
1.847e+12 -5.82656e-43 -1984.16
1.864e+12 -8.92309e-44 -2821.02
1.881e+12 -5.61204e-44 -3067.76
1.898e+12 -1.45724e-43 -3405.63
1.915e+12 -3.99146e-41 5882.95
1.932e+12 -1.24738e-43 -2571.8
1.949e+12 -5.70353e-44 -2866.8
1.966e+12 -8.27679e-44 -3099.61
1.983e+12 -9.45676e-43 -4090.93
2e+12 -2.7227e-43 -2211.99
3.16228e+12 -4.6807e-44 -1720.71
5.62341e+12 -1.95261e-44 -1011.25
1e+13 -1.35636e-44 -573.931
1.77828e+13 -6.37944e-44 -332.061
3.16228e+13 -2.8138e-43 -189.606
5.62341e+13 -1.81271e-45 -98.3578
1e+14 -1.61431e-45 -52.463
1.77828e+14 -1.78164e-44 -26.0391
3.16228e+14 -3.2882e-46 -10.676
5.62341e+14 -1.15158e-46 -2.9557
1e+15 -1.18301e-46 -0.343206

File: ZydipWLHC_2layers1.00mm_test_coll_round_sio2.dat
Frequency [Hz]	Re(Zydip) [Ohm/m]	Im(Zydip) [Ohm/m]
1e+09 -1.913e-26 3.4616e+07
1.77828e+09 -4.66202e-26 3.4778e+07
3.16228e+09 -6.08077e-26 3.59194e+07
5.62341e+09 2.11715e-33 3.42186e+07
1e+10 -7.53136e-27 3.65449e+07
1.77828e+10 1.65286e-27 5.08601e+07
3.16228e+10 -1.37694e-27 3.6657e+07
5.62341e+10 -2.42708e-76 6.426e+07
1e+11 -1.06686e-25 1.47244e+09
1.77828e+11 2.07176e-31 2.54424e+06
3e+11 -2.08812e-31 -4.87987e+06
3.16228e+11 1.19617e-30 -1.13618e+07
3.17e+11 -3.56226e-31 -9.16482e+06
3.34e+11 7.24067e-31 9.82353e+06
3.51e+11 -0.00000000e+00 -859915
3.68e+11 4.56348e-32 -2.66765e+06
3.85e+11 -1.33842e-31 -4.11553e+06
4.02e+11 5.01794e-31 -1.15948e+07
4.19e+11 9.09576e-33 593037
4.36e+11 -7.50114e-33 -1.55894e+06
4.53e+11 -1.27313e-32 -2.42436e+06
4.7e+11 1.90973e-38 -3.77394e+06
4.87e+11 -2.22212e-31 5.59026e+06
5.04e+11 -1.78399e-33 -831607
5.21e+11 7.09378e-33 -1.58489e+06
5.38e+11 1.0289e-32 -2.17424e+06
5.55e+11 1.40472e-31 -5.09628e+06
5.62341e+11 6.00461e-33 -1.66087e+06
5.72e+11 4.3694e-39 -119098
5.89e+11 -0.00000000e+00 -1.0738e+06
6.06e+11 2.33415e-33 -1.46258e+06
6.23e+11 -7.25818e-33 -2.12063e+06
6.4e+11 -1.94248e-32 1.84731e+06
6.57e+11 -1.33282e-33 -701506
6.74e+11 -1.42812e-33 -1.05239e+06
6.91e+11 -2.275e-33 -1.35733e+06
7.08e+11 -8.26308e-39 -3.41198e+06
7.25e+11 2.49009e-34 -341977
7.42e+11 -5.58225e-34 -777877
7.59e+11 2.8576e-39 -981524
7.76e+11 2.09245e-33 -1.3977e+06
7.93e+11 -4.57303e-34 364011
8.1e+11 7.21262e-40 -567948
8.27e+11 6.86842e-34 -748948
8.44e+11 -1.27777e-33 -936271
8.61e+11 4.12375e-32 -3.66053e+06
8.78e+11 -3.88566e-34 -371965
8.95e+11 2.69316e-34 -585249
9.12e+11 3.04299e-34 -706222
9.29e+11 -2.44277e-33 -1.03027e+06
9.46e+11 -3.58693e-39 -80334.6
9.63e+11 2.6305e-34 -456959
9.8e+11 1.89469e-34 -559826
9.97e+11 2.16617e-34 -692414
1e+12 -1.77491e-86 -583211
1.014e+12 -2.30631e-31 4.49713e+06
1.031e+12 -5.8461e-40 -340756
1.048e+12 -7.84861e-40 -454146
1.065e+12 -1.95209e-34 -534424
1.082e+12 -0.00000000e+00 -846852
1.099e+12 6.25074e-35 -197986
1.116e+12 -1.3667e-34 -370326
1.133e+12 -1.1715e-34 -434405
1.15e+12 8.3276e-86 -541244
1.167e+12 -9.07158e-40 260861
1.184e+12 -8.07764e-35 -296099
1.201e+12 1.92938e-40 -361670
1.218e+12 -2.78589e-40 -420663
1.235e+12 -2.03078e-34 -832513
1.252e+12 3.33872e-35 -215513
1.269e+12 2.29732e-40 -303763
1.286e+12 -4.00289e-35 -347319
1.303e+12 -3.59519e-40 -445603
1.32e+12 -2.12592e-35 -65250
1.337e+12 -2.1358e-35 -253333
1.354e+12 -5.64681e-35 -294455
1.371e+12 -8.69629e-35 -342275
1.388e+12 -1.24482e-38 -1.95253e+06
1.405e+12 -0.00000000e+00 -202717
1.422e+12 -2.14233e-40 -252511
1.439e+12 3.00134e-35 -284712
1.456e+12 -2.09139e-34 -390616
1.473e+12 -8.90752e-35 -132149
1.49e+12 -1.40686e-40 -216475
1.507e+12 -0.00000000e+00 -244350
1.524e+12 2.42543e-40 -287172
1.541e+12 2.30101e-34 192978
1.558e+12 7.91575e-36 -182088
1.575e+12 1.59616e-35 -212685
1.592e+12 -1.23238e-35 -238537
1.609e+12 1.47236e-34 -384409
1.626e+12 -3.60372e-36 -141596
1.643e+12 -1.53168e-35 -185832
1.66e+12 -7.55651e-36 -206206
1.677e+12 -2.90383e-35 -248998
1.694e+12 -2.13052e-40 -55424.3
1.711e+12 -8.96859e-36 -161065
1.728e+12 1.04346e-40 -181381
1.745e+12 -1.11328e-35 -203935
1.762e+12 3.45337e-34 -607813
1.77828e+12 -5.41128e-36 -141316
1.779e+12 6.89177e-36 -134731
1.796e+12 -1.71515e-40 -160638
1.813e+12 6.18548e-36 -176676
1.83e+12 -1.93481e-35 -225775
1.847e+12 -1.74762e-40 -95279.4
1.864e+12 3.756e-41 -141980
1.881e+12 -1.73092e-35 -156487
1.898e+12 -1.68103e-35 -177969
1.915e+12 -6.15637e-35 138444
1.932e+12 -7.44067e-36 -123376
1.949e+12 3.63383e-36 -139943
1.966e+12 7.67287e-41 -153539
1.983e+12 -1.12535e-34 -223739
2e+12 1.61232e-35 -100406
3.16228e+12 -8.32736e-37 -51357.3
5.62341e+12 2.79296e-38 -17151.8
1e+13 -3.10697e-40 -5492.41
1.77828e+13 -9.30079e-42 -1806.18
3.16228e+13 -1.26131e-42 -587.237
5.62341e+13 -6.28237e-44 -171.378
1e+14 -5.52945e-45 -53.347
1.77828e+14 -1.30013e-44 -16.1631
3.16228e+14 -2.22428e-46 -4.41312
5.62341e+14 -3.94958e-47 -0.965475
1e+15 -4.04308e-47 -0.114884

File: ZyquadWLHC_2layers1.00mm_test_coll_round_sio2.dat
Frequency [Hz]	Re(Zyquad) [Ohm/m]	Im(Zyquad) [Ohm/m]
1e+09 -3.97035e-52 0.000284137
1.77828e+09 1.00712e-53 0.000905137
3.16228e+09 -2.14042e-51 0.00293142
5.62341e+09 4.03618e-50 0.0100719
1e+10 -1.27669e-49 0.0466952
1.77828e+10 -3.02326e-49 -0.0597694
3.16228e+10 -3.23919e-48 0.392035
5.62341e+10 -3.22615e-47 -1.1262
1e+11 -2.12223e-47 -1.00846
1.77828e+11 -2.29973e-47 0.303735
3e+11 -1.29941e-47 -0.830165
3.16228e+11 -5.99652e-47 -1.58843
3.17e+11 -4.23746e-47 -1.40829
3.34e+11 -2.47602e-44 19.7312
3.51e+11 -3.81853e-47 -0.208358
3.68e+11 -1.59706e-47 -0.724746
3.85e+11 -2.45087e-47 -1.10428
4.02e+11 -1.53227e-46 -2.14378
4.19e+11 -1.41812e-46 0.374634
4.36e+11 -2.17622e-47 -0.616121
4.53e+11 -1.75249e-47 -0.960621
4.7e+11 -4.49139e-47 -1.40368
4.87e+11 -1.7353e-43 39.537
5.04e+11 -4.22212e-47 -0.448978
5.21e+11 -1.81501e-47 -0.861511
5.38e+11 -2.22679e-47 -1.16455
5.55e+11 -2.03963e-46 -2.06557
5.62341e+11 -2.0147e-47 -1.01678
5.72e+11 -1.37197e-46 -0.042331
5.89e+11 -2.43255e-47 -0.766492
6.06e+11 -2.32906e-47 -1.03869
6.23e+11 -6.12755e-47 -1.42198
6.4e+11 -4.72724e-45 4.20723
6.57e+11 -4.04746e-47 -0.63911
6.74e+11 -1.81005e-47 -0.950404
6.91e+11 -2.80994e-47 -1.20574
7.08e+11 -3.20715e-46 -2.19848
7.25e+11 -1.05652e-46 -0.384021
7.42e+11 -2.30713e-47 -0.870148
7.59e+11 -2.49606e-47 -1.09056
7.76e+11 -7.85847e-47 -1.45859
7.93e+11 -8.53738e-46 0.808781
8.1e+11 -3.27655e-47 -0.773694
8.27e+11 -2.14851e-47 -1.011
8.44e+11 -3.56379e-47 -1.23994
8.61e+11 -8.74762e-46 -2.71568
8.78e+11 -6.98963e-47 -0.611137
8.95e+11 -1.98817e-47 -0.942323
9.12e+11 -2.52491e-47 -1.12863
9.29e+11 -1.09125e-46 -1.52236
9.46e+11 -3.07939e-46 -0.127412
9.63e+11 -3.03813e-47 -0.867108
9.8e+11 -2.20476e-47 -1.05462
9.97e+11 -4.26896e-47 -1.27408
1e+12 -2.42064e-47 -1.12448
1.014e+12 -1.34447e-44 -6.74051
1.031e+12 -5.34707e-47 -0.757549
1.048e+12 -2.07207e-47 -0.994064
1.065e+12 -2.77105e-47 -1.15967
1.082e+12 -1.8779e-46 -1.64099
1.099e+12 -1.56378e-46 -0.514871
1.116e+12 -2.57157e-47 -0.932952
1.133e+12 -2.01933e-47 -1.08796
1.15e+12 -6.39437e-47 -1.31444
1.167e+12 -3.00869e-45 1.3334
1.184e+12 -3.95236e-47 -0.85422
1.201e+12 -2.49958e-47 -1.03259
1.218e+12 -3.04985e-47 -1.18803
1.235e+12 -4.72626e-46 -1.91366
1.252e+12 -8.76324e-47 -0.713183
1.269e+12 -2.371e-47 -0.980719
1.286e+12 -2.42889e-47 -1.11522
1.303e+12 -9.1192e-47 -1.37028
1.32e+12 -4.77137e-46 -0.231296
1.337e+12 -2.99034e-47 -0.920542
1.354e+12 -2.30149e-47 -1.06254
1.371e+12 -4.22784e-47 -1.21738
1.388e+12 -3.14761e-45 -3.08799
1.405e+12 -5.90941e-47 -0.828969
1.422e+12 -2.03042e-47 -1.01658
1.439e+12 -2.70304e-47 -1.13931
1.456e+12 -1.59001e-46 -1.46192
1.473e+12 -1.84244e-46 -0.613888
1.49e+12 -2.88643e-47 -0.967917
1.507e+12 -2.41726e-47 -1.08703
1.524e+12 -5.4295e-47 -1.25198
1.541e+12 -7.81365e-45 1.84373
1.558e+12 -3.978e-47 -0.902989
1.575e+12 -1.944e-47 -1.04454
1.592e+12 -3.33881e-47 -1.16258
1.609e+12 -3.6114e-46 -1.65458
1.626e+12 -9.23016e-47 -0.782816
1.643e+12 -2.49484e-47 -1.00312
1.66e+12 -2.55078e-47 -1.10823
1.677e+12 -8.93111e-47 -1.29887
1.694e+12 -6.06555e-46 -0.338802
1.711e+12 -3.10275e-47 -0.953616
1.728e+12 -2.09681e-47 -1.06725
1.745e+12 -4.25001e-47 -1.18744
1.762e+12 -2.08698e-45 -2.37005
1.77828e+12 -5.05306e-47 -0.912031
1.779e+12 -5.90688e-47 -0.876555
1.796e+12 -2.34958e-47 -1.03029
1.813e+12 -2.57301e-47 -1.12784
1.83e+12 -1.46983e-46 -1.37392
1.847e+12 -2.02643e-46 -0.690073
1.864e+12 -3.13193e-47 -0.990157
1.881e+12 -1.98775e-47 -1.08658
1.898e+12 -5.2081e-47 -1.21715
1.915e+12 -1.4393e-44 2.12136
1.932e+12 -4.53793e-47 -0.935612
1.949e+12 -2.09318e-47 -1.05211
1.966e+12 -3.06406e-47 -1.14747
1.983e+12 -3.53116e-46 -1.52755
2e+12 -1.02537e-46 -0.833037
3.16228e+12 -2.78716e-47 -1.02461
5.62341e+12 -2.0676e-47 -1.07081
1e+13 -2.55404e-47 -1.08071
1.77828e+13 -2.13616e-46 -1.11191
3.16228e+13 -1.6755e-45 -1.12902
5.62341e+13 -1.91946e-47 -1.0415
1e+14 -3.03975e-47 -0.987882
1.77828e+14 -5.96585e-46 -0.871922
3.16228e+14 -1.95799e-47 -0.63571
5.62341e+14 -1.2194e-47 -0.312977
1e+15 -2.22761e-47 -0.0646259